Folder: Phasendiagramme/Messdaten

Note: README.md
Das ist ein Github f√ºr das F-Praktikum im Physikstudium an der HU Berlin im Jahr 2017 von Christoph Egerland und Max Pfeifer.

Versuch: Luminescence Spectroscopy (LUM)

File: ExpDat_Dy_0.5Tb_0.5ScO3-2050-2x-1(alt).txt
#EXPORTTYPE:                 	DATA COMPARE                    	DATA COMPARE                    	DATA COMPARE                    	DATA COMPARE                    	DATA COMPARE
#FILE:                       	Dy_0.5Tb_0.5ScO3-2050-2x.ngb-sst	Dy_0.5Tb_0.5ScO3-2050-2x.ngb-sst	Tb_0.5Gd_0.5ScO3-2200-2x.ngb-sst	Tb_0.5Gd_0.5ScO3-2200-2x.ngb-sst	Al2O3-1950-1x.ngb-sst
#FORMAT:                     	NETZSCH5                        	NETZSCH5                        	NETZSCH5                        	NETZSCH5                        	NETZSCH5
#FTYPE:                      	ASCII                           	ASCII                           	ASCII                           	ASCII                           	ASCII
#IDENTITY:                   	cm-02                           	cm-02                           	cm-01                           	cm-01                           	cm-03
#DECIMAL:                    	POINT                           	POINT                           	POINT                           	POINT                           	POINT
#SEPARATOR:                  	TAB                             	TAB                             	TAB                             	TAB                             	TAB
#MTYPE:                      	DTA                             	DTA                             	DTA                             	DTA                             	DTA
#INSTRUMENT:                 	NETZSCH STA 429(CD)             	NETZSCH STA 429(CD)             	NETZSCH STA 429(CD)             	NETZSCH STA 429(CD)             	NETZSCH STA 429(CD)
#PROJECT:                    	HU-Praktikum                    	HU-Praktikum                    	HU-Praktikum                    	HU-Praktikum                    	HU-Praktikum
#DATE/TIME:                  	13.09.2017 15:30:53 (UTC+2)     	13.09.2017 15:30:53 (UTC+2)     	12.09.2017 14:36:56 (UTC+2)     	12.09.2017 14:36:56 (UTC+2)     	14.09.2017 10:00:20 (UTC+2)
#CORR. FILE:
#TEMPCAL:                    	TCALZERO.TCX                    	TCALZERO.TCX                    	TCALZERO.TCX                    	TCALZERO.TCX                    	TCALZERO.TCX
#SENSITIVITY:                	SENSZERO.EXX                    	SENSZERO.EXX                    	SENSZERO.EXX                    	SENSZERO.EXX                    	SENSZERO.EXX
#LABORATORY:                 	IKZ Berlin                      	IKZ Berlin                      	IKZ Berlin                      	IKZ Berlin                      	IKZ Berlin
#OPERATOR:                   	kl                              	kl                              	kl                              	kl                              	kl
#REMARK:                     	1 X-St?ck, mit Deckel           	1 X-St?ck, mit Deckel           	1 X-St?ck, mit Deckel           	1 X-St?ck, mit Deckel           	Probe vom 21.7.2016
#SAMPLE:                     	Dy_0.5Tb_0.5ScO3                	Dy_0.5Tb_0.5ScO3                	Tb_0.5Gd_0.5ScO3                	Tb_0.5Gd_0.5ScO3                	Al2O3-Kalibrierung
#SAMPLE MASS /mg:            	62.85                           	62.85                           	72.75                           	72.75                           	22.88
#MATERIAL:                   	Scandate                        	Scandate                        	Scandate                        	Scandate                        	Scandate
#REFERENCE:                  	empty                           	empty                           	empty                           	empty                           	empty
#REFERENCE MASS /mg:         	0                               	0                               	0                               	0                               	0
#TYPE OF CRUCIBLE:           	DTA/TG crucible Tungsten        	DTA/TG crucible Tungsten        	DTA/TG crucible Tungsten        	DTA/TG crucible Tungsten        	DTA/TG crucible Tungsten
#SAMPLE CRUCIBLE MASS /mg:   	330.67                          	330.67                          	426.25                          	426.25                          	390.36
#REFERENCE CRUCIBLE MASS /mg:	584.15                          	584.15                          	584.15                          	584.15                          	584.15
#PROTECTIVE GAS:             	<no gas>                        	<no gas>                        	<no gas>                        	<no gas>                        	<no gas>
#FLOW RATE:
#PURGE GAS 1:                	<no gas>                        	<no gas>                        	<no gas>                        	<no gas>                        	<no gas>
#FLOW RATE 1:
#GAS 1:                      	HELIUM                          	HELIUM                          	HELIUM                          	HELIUM                          	HELIUM
#FLOW RATE 1 /(ml/min):      	0                               	0                               	0                               	0                               	0
#GAS 2:                      	<no gas>                        	<no gas>                        	<no gas>                        	<no gas>                        	<no gas>
#FLOW RATE 2:
#TG RANGE /mg:               	30000                           	30000                           	30000                           	30000                           	30000
#TAU-R:                      	---                             	---                             	---                             	---                             	---
#CORR. CODE:                 	000                             	000                             	000                             	000                             	000
#EXO:                        	+1                              	+1                              	+1                              	+1                              	+1
#RANGE:                      	24.0›C/15.0(K/min)/2050.0›C     	500.0›C/15.0(K/min)/2050.0›C    	24.0›C/15.0(K/min)/2050.0›C     	500.0›C/15.0(K/min)/2050.0›C    	24.0›C/15.0(K/min)/2000.0›C
#SEGMENT:                    	S1/4                            	S3/4                            	S1/4                            	S3/4                            	S1/2
#SEG. 3:                     	                                	500.0›C/15.0(K/min)/2050.0›C    	                                	500.0›C/15.0(K/min)/2050.0›C
#SEG. 1:                     	24.0›C/15.0(K/min)/2050.0›C     	                                	24.0›C/15.0(K/min)/2050.0›C     	                                	24.0›C/15.0(K/min)/2000.0›C

##Temp./›C	DTA/(‘V/mg)	DTA/(‘V/mg)	DTA/(‘V/mg)	DTA/(‘V/mg)	DTA/(‘V/mg)
1813.26	0.84733	0.96214	0.89844	0.84198	3.03529
1814.26	0.84178	0.96136	0.89670	0.84148	3.03788
1815.26	0.84253	0.96191	0.89581	0.84034	3.03845
1816.26	0.84231	0.96278	0.89674	0.83861	3.03881
1817.26	0.84325	0.96301	0.89403	0.83937	3.03980
1818.26	0.84353	0.96293	0.89983	0.83946	3.04129
1819.26	0.84374	0.96229	0.90026	0.83906	3.04432
1820.26	0.84390	0.96291	0.89879	0.84522	3.04352
1821.26	0.84805	0.96224	0.90028	0.84566	3.04810
1822.26	0.86052	0.96197	0.90154	0.84231	3.05210
1823.26	0.86561	0.96081	0.90045	0.83736	3.05732
1824.26	0.85932	0.96250	0.89673	0.83731	3.05861
1825.26	0.85115	0.96371	0.89500	0.83744	3.05919
1826.26	0.85027	0.96417	0.89838	0.83583	3.06250
1827.26	0.85638	0.96444	0.89654	0.83699	3.06689
1828.26	0.85896	0.96423	0.89261	0.83734	3.07016
1829.26	0.86553	0.96547	0.89078	0.83553	3.07419
[...]
1915.26	0.85728	0.87970	0.87111	0.83121
1916.26	0.84614	0.86340	0.86893	0.82900
1917.26	0.83731	0.85178	0.86423	0.82698
1918.26	0.82857	0.83535	0.86122	0.82564
1919.26	0.81723	0.81279	0.85904	0.82482
1920.26	0.80209	0.79435	0.85735	0.82671
1921.26	0.78661	0.78428	0.85484	0.82365
1922.26	0.72355	0.76210	0.85259	0.82115
1923.26	0.69087	0.74700	0.85206	0.82199
1924.26	0.64928	0.74124	0.85003	0.82238
1925.26	0.59614	0.75187	0.84792	0.82090
1926.26	0.56226	0.78584	0.84712	0.81965
1927.26	0.54189	0.92020	0.84558	0.81749
1928.26	0.52909	0.98053	0.84431	0.81637
1929.26	0.51482	0.98279	0.84450	0.81464
1930.26	0.55202	0.98363	0.84073	0.81442
1931.26	0.65479	0.98343	0.83949	0.80994
1932.26	0.70927	0.97896	0.83924	0.80660
1933.26	0.75725	0.97691	0.83990	0.80281
1934.26	0.86163	0.97576	0.84074	0.80014
1935.26	0.87154	0.97395	0.84020	0.79570
1936.26	0.87203	0.97351	0.83926	0.79021
1937.26	0.87301	0.97242	0.83755	0.79230
1938.26	0.87476	0.97273	0.83608	0.78310
1939.26	0.87546	0.97263	0.83499	0.77688
1940.26	0.87678	0.97194	0.83369	0.76838
1941.26	0.87665	0.97228	0.83299	0.76139
1942.26	0.87391	0.97170	0.83328	0.75443
1943.26	0.87395	0.96952	0.83198	0.74730
1944.26	0.87402	0.96941	0.82654	0.73926
1945.26	0.87403	0.97037	0.82281	0.72967
1946.26	0.87412	0.97029	0.82321	0.72165
1947.26	0.87242	0.96945	0.81993	0.71074
1948.26	0.87267	0.96964	0.81967	0.70004
1949.26	0.86986	0.96870	0.81711	0.69078
1950.26	0.86728	0.96784	0.81481	0.67980
1951.26	0.86460	0.96683	0.80963	0.66907
1952.26	0.86431	0.96727	0.80586	0.65778
1953.26	0.86162	0.96597	0.80509	0.65016
1954.26	0.85716	0.96519	0.79630	0.64826
1955.26	0.85542	0.96471	0.79540	0.64899
1956.26	0.85486	0.96416	0.78896	0.65256
1957.26	0.85272	0.96336	0.78371	0.66959
1958.26	0.85654	0.96260	0.77244	0.69988
1959.26	0.85745	0.96263	0.76371	0.75266
1960.26	0.85771	0.96249	0.75408	0.81834
1961.26	0.85751	0.96244	0.74991	0.82234
1962.26	0.85706	0.96199	0.73410	0.82009
1963.26	0.85622	0.96109	0.70847	0.81922
1964.26	0.85678	0.96076	0.69149	0.81912
1965.26	0.85544	0.96058	0.67317	0.81896
1966.26	0.85374	0.96052	0.65530	0.81892
1967.26	0.85231	0.96086	0.61038	0.81862
1968.26	0.85153	0.95895	0.57666	0.81720
1969.26	0.85092	0.95796	0.55891	0.81610
1970.26	0.84818	0.95042	0.55516	0.81475
1971.26	0.84868	0.94487	0.56735	0.81434
1972.26	0.84712	0.94224	0.62707	0.81501
1973.26	0.84657	0.94076	0.64915	0.81521
1974.26	0.84431	0.93930	0.66703	0.81487
1975.26	0.84386	0.93744	0.68511	0.81608
1976.26	0.84293	0.93559	0.74236	0.81453
1977.26	0.83857	0.93391	0.80419	0.81219
1978.26	0.83427	0.93317	0.80537	0.81313
1979.26	0.83241	0.93193	0.80647	0.81423
1980.26	0.83016	0.93106	0.80547	0.81566
1981.26	0.82866	0.93011	0.80404	0.81515
1982.26	0.82692	0.92944	0.79662	0.81380
1983.26	0.82658	0.92847	0.79556	0.81337
1984.26	0.82501	0.92771	0.79609	0.81025
1985.26	0.82295	0.92652	0.79693	0.80863
1986.26	0.82028	0.92574	0.79558	0.80851
1987.26	0.81586	0.92594	0.79502	0.80835
1988.26	0.81276	0.92407	0.79473	0.80758
1989.26	0.81164	0.92301	0.79387	0.80769
1990.26	0.81020	0.92193	0.79319	0.80756
1991.26	0.80850	0.92108	0.79198	0.80606
1992.26	0.80904	0.91977	0.79073	0.80438
1993.26	0.80762	0.92019	0.78996	0.80278
1994.26	0.80732	0.91838	0.79026	0.80285
1995.26	0.80611	0.91524	0.79171	0.80282
1996.26	0.80361	0.91344	0.79143	0.80217
1997.26	0.80214	0.91161	0.79047	0.80122
1998.26	0.80278	0.90954	0.79048	0.79917
1999.26	0.80027	0.90857	0.79023	0.79805
2000.26	0.79597	0.90767	0.78880	0.79702
2001.26	0.79423	0.90647	0.78825	0.79634
2002.26	0.79318	0.90483	0.78693	0.79467
2003.26	0.79128	0.90332	0.78554	0.79420
2004.26	0.79257	0.90290	0.78453	0.79541
2005.26	0.79241	0.90212	0.78261	0.79651

File: ExpDat_Tb_0.5Gd_0.5ScO3-2200-2x-3(unsere).txt
#EXPORTTYPE:                 	DATA COMPARE                    	DATA COMPARE                    	DATA COMPARE                    	DATA COMPARE                    	DATA COMPARE
#FILE:                       	Dy_0.5Tb_0.5ScO3-2050-2x.ngb-sst	Dy_0.5Tb_0.5ScO3-2050-2x.ngb-sst	Tb_0.5Gd_0.5ScO3-2200-2x.ngb-sst	Tb_0.5Gd_0.5ScO3-2200-2x.ngb-sst	Al2O3-1950-1x.ngb-sst
#FORMAT:                     	NETZSCH5                        	NETZSCH5                        	NETZSCH5                        	NETZSCH5                        	NETZSCH5
#FTYPE:                      	ASCII                           	ASCII                           	ASCII                           	ASCII                           	ASCII
#IDENTITY:                   	cm-02                           	cm-02                           	cm-01                           	cm-01                           	cm-03
#DECIMAL:                    	POINT                           	POINT                           	POINT                           	POINT                           	POINT
#SEPARATOR:                  	TAB                             	TAB                             	TAB                             	TAB                             	TAB
#MTYPE:                      	DTA                             	DTA                             	DTA                             	DTA                             	DTA
#INSTRUMENT:                 	NETZSCH STA 429(CD)             	NETZSCH STA 429(CD)             	NETZSCH STA 429(CD)             	NETZSCH STA 429(CD)             	NETZSCH STA 429(CD)
#PROJECT:                    	HU-Praktikum                    	HU-Praktikum                    	HU-Praktikum                    	HU-Praktikum                    	HU-Praktikum
#DATE/TIME:                  	13.09.2017 15:30:53 (UTC+2)     	13.09.2017 15:30:53 (UTC+2)     	12.09.2017 14:36:56 (UTC+2)     	12.09.2017 14:36:56 (UTC+2)     	14.09.2017 10:00:20 (UTC+2)
#CORR. FILE:
#TEMPCAL:                    	TCALZERO.TCX                    	TCALZERO.TCX                    	TCALZERO.TCX                    	TCALZERO.TCX                    	TCALZERO.TCX
#SENSITIVITY:                	SENSZERO.EXX                    	SENSZERO.EXX                    	SENSZERO.EXX                    	SENSZERO.EXX                    	SENSZERO.EXX
#LABORATORY:                 	IKZ Berlin                      	IKZ Berlin                      	IKZ Berlin                      	IKZ Berlin                      	IKZ Berlin
#OPERATOR:                   	kl                              	kl                              	kl                              	kl                              	kl
#REMARK:                     	1 X-St?ck, mit Deckel           	1 X-St?ck, mit Deckel           	1 X-St?ck, mit Deckel           	1 X-St?ck, mit Deckel           	Probe vom 21.7.2016
#SAMPLE:                     	Dy_0.5Tb_0.5ScO3                	Dy_0.5Tb_0.5ScO3                	Tb_0.5Gd_0.5ScO3                	Tb_0.5Gd_0.5ScO3                	Al2O3-Kalibrierung
#SAMPLE MASS /mg:            	62.85                           	62.85                           	72.75                           	72.75                           	22.88
#MATERIAL:                   	Scandate                        	Scandate                        	Scandate                        	Scandate                        	Scandate
#REFERENCE:                  	empty                           	empty                           	empty                           	empty                           	empty
#REFERENCE MASS /mg:         	0                               	0                               	0                               	0                               	0
#TYPE OF CRUCIBLE:           	DTA/TG crucible Tungsten        	DTA/TG crucible Tungsten        	DTA/TG crucible Tungsten        	DTA/TG crucible Tungsten        	DTA/TG crucible Tungsten
#SAMPLE CRUCIBLE MASS /mg:   	330.67                          	330.67                          	426.25                          	426.25                          	390.36
#REFERENCE CRUCIBLE MASS /mg:	584.15                          	584.15                          	584.15                          	584.15                          	584.15
#PROTECTIVE GAS:             	<no gas>                        	<no gas>                        	<no gas>                        	<no gas>                        	<no gas>
#FLOW RATE:
#PURGE GAS 1:                	<no gas>                        	<no gas>                        	<no gas>                        	<no gas>                        	<no gas>
#FLOW RATE 1:
#GAS 1:                      	HELIUM                          	HELIUM                          	HELIUM                          	HELIUM                          	HELIUM
#FLOW RATE 1 /(ml/min):      	0                               	0                               	0                               	0                               	0
#GAS 2:                      	<no gas>                        	<no gas>                        	<no gas>                        	<no gas>                        	<no gas>
#FLOW RATE 2:
#TG RANGE /mg:               	30000                           	30000                           	30000                           	30000                           	30000
#TAU-R:                      	---                             	---                             	---                             	---                             	---
#CORR. CODE:                 	000                             	000                             	000                             	000                             	000
#EXO:                        	+1                              	+1                              	+1                              	+1                              	+1
#RANGE:                      	24.0›C/15.0(K/min)/2050.0›C     	500.0›C/15.0(K/min)/2050.0›C    	24.0›C/15.0(K/min)/2050.0›C     	500.0›C/15.0(K/min)/2050.0›C    	24.0›C/15.0(K/min)/2000.0›C
#SEGMENT:                    	S1/4                            	S3/4                            	S1/4                            	S3/4                            	S1/2
#SEG. 3:                     	                                	500.0›C/15.0(K/min)/2050.0›C    	                                	500.0›C/15.0(K/min)/2050.0›C
#SEG. 1:                     	24.0›C/15.0(K/min)/2050.0›C     	                                	24.0›C/15.0(K/min)/2050.0›C     	                                	24.0›C/15.0(K/min)/2000.0›C

##Temp./›C	DTA/(‘V/mg)	DTA/(‘V/mg)	DTA/(‘V/mg)	DTA/(‘V/mg)	DTA/(‘V/mg)
  20.60200	 3.5800e-003	           	 3.5567e-003	           	 1.0216e-002
  35.10200	-2.5467e-002	           	-2.3198e-002	           	-8.6330e-002
  49.60200	-9.1833e-003	           	-7.5798e-003	           	-3.4551e-002
  64.10200	-1.8414e-002	           	-1.6132e-002	           	-5.9634e-002
  78.60200	-1.5166e-002	           	-1.3065e-002	           	-4.7605e-002
  93.10200	-1.9055e-002	           	-1.4872e-002	           	-5.7369e-002
 107.602	-2.2875e-002	           	-1.6865e-002	           	-6.3239e-002
 122.102	-2.6673e-002	           	-1.9726e-002	           	-6.7774e-002
 136.602	-3.1215e-002	           	-2.1295e-002	           	-7.1460e-002
 151.102	-3.6833e-002	           	-2.4018e-002	           	-7.6832e-002
 165.602	-4.2759e-002	           	-2.5612e-002	           	-8.0891e-002
[...]
1267.6	     0.68807	    0.90770	     0.65289	    0.84275	     2.80634
1282.1	     0.79453	    0.89712	     0.63821	    0.83572	     2.80309
1296.6	     0.81436	    0.88883	     0.66559	    0.83462	     2.84272
1311.1	     0.82151	    0.91266	     0.66774	    0.83556	     2.87481
1325.6	     0.86260	    0.93628	     0.71327	    0.81866	     2.94472
1340.1	     0.86239	    0.93629	     0.72880	    0.82734	     2.94408
1354.6	     0.82254	    0.94395	     0.72554	    0.83093	     2.99008
1369.1	     0.78893	    0.96666	     0.73156	    0.83171	     2.94992
1383.6	     0.77940	    0.96893	     0.72805	    0.83793	     3.10370
1398.1	     0.80954	    0.96037	     0.77660	    0.83933	     3.03589
1412.6	     0.79213	    0.97491	     0.75264	    0.87534	     3.10451
1427.1	     0.78861	    0.97096	     0.85432	    0.92295	     3.14552
1441.6	     0.79428	    0.98134	     0.85569	    0.93833	     3.17112
1456.1	     0.79842	    0.98507	     0.86320	    0.95556	     3.20048
1470.6	     0.82125	    1.00368	     0.85096	    0.92346	     3.21502
1485.1	     0.81685	    1.02429	     0.88462	    0.93189	     3.23644
1499.6	     0.81447	    1.02178	     0.89867	    0.96146	     3.23376
1514.1	     0.80900	    1.01716	     0.90761	    0.96201	     3.26053
1528.6	     0.81582	    1.03546	     0.89782	    0.93286	     3.26132
1543.1	     0.82756	    1.03828	     0.89871	    0.91943	     3.26662
1557.6	     0.82354	    1.04047	     0.88075	    0.91220	     3.26720
1572.1	     0.80861	    1.04472	     0.89312	    0.92699	     3.29372
1586.6	     0.88958	    1.04549	     0.89324	    0.90597	     3.30505
1601.1	     0.86791	    1.04680	     0.89333	    0.90547	     3.31364
1615.6	     0.88462	    1.04689	     0.89139	    0.89840	     3.27941
1630.1	     0.89111	    1.04671	     0.88049	    0.89105	     3.26258
1644.6	     0.88302	    1.04211	     0.87824	    0.87127	     3.19996
1659.1	     0.86348	    1.03729	     0.88909	    0.89123	     3.17490
1673.6	     0.84088	    1.04348	     0.87730	    0.87527	     3.16267
1688.1	     0.84346	    1.04060	     0.88782	    0.86602	     3.12511
1702.6	     0.84680	    1.03937	     0.88123	    0.85113	     3.10585
1717.1	     0.83139	    1.01727	     0.87217	    0.83457	     3.08742
1731.6	     0.83030	    1.00590	     0.90825	    0.83659	     3.06452
1746.1	     0.82079	    0.99837	     0.91611	    0.83784	     3.03415
1760.6	     0.82864	    0.99135	     0.92342	    0.84577	     3.01045
1775.1	     0.82574	    0.98089	     0.91454	    0.84738	     2.99542
1789.6	     0.84231	    0.96558	     0.90943	    0.84098	     2.99044
1804.1	     0.84092	    0.95951	     0.90097	    0.83701	     3.00923
1818.6	     0.84379	    0.96270	     0.90090	    0.83940	     3.04315
1833.1	     0.87617	    0.96650	     0.89389	    0.83051	     3.09471
1847.6	     0.89935	    0.96633	     0.88874	    0.82334	     3.11337
1862.1	     0.89417	    0.97985	     0.88596	    0.81837	     2.51002
1876.6	     0.86559	    0.97717	     0.88843	    0.83586	     3.07583
1891.1	     0.86743	    0.98371	     0.89076	    0.84096	     3.07834
1905.6	     0.87384	    0.97114	     0.89652	    0.83715	     3.07834
1920.1	     0.80521	    0.79713	     0.85767	    0.82718
1934.6	     0.86833	    0.97510	     0.84073	    0.79902
1949.1	     0.87022	    0.96862	     0.81749	    0.69248
1963.6	     0.85763	    0.96053	     0.70212	    0.81965
1978.1	     0.83480	    0.93334	     0.80561	    0.81317
1992.6	     0.80836	    0.91969	     0.79005	    0.80366
2007.1	     0.79026	    0.90038	     0.77994	    0.80099
2021.6	     0.76700	    0.87829	     0.75500	    0.78555
2035.1	     0.73494	    0.85802	     0.73141	    0.76180